File: Data/8-Pixel Device/backward/devices/sample 1[4]/sample 1[4]_13_0_Set light intensity.csv
#ID:	2
#type:	Set light intensity
#start_time:	16/04/2025 17.38.22
#
# Parameters
#Sample area:	0.25 cm²
#Comment:
#Resolution of the measurement unit:	10 (higher better/slower)
##Sample holder climate : temperature:	[30.245,30.245] °C
##Sample holder climate : relative humidity:	[31.615,31.615] %
##IR temperature [0]:	[31.91,31.91] °C
##Stage temperature:	[30.7062,30.7062] °C
##Light intensity:	[0,100] %
#
#wavelength (nm),intensity (W/m2/nm)
330,0
332.969,4.07436E-5
335.937,7.86027E-5
338.906,0.0210082
341.875,0.0101832
344.844,1.23145E-5
347.812,4.22252E-5
350.781,1.924E-5
353.75,0.0981008
356.719,0.240883
359.687,0.641701
362.656,1.39319
365.625,2.56446
368.594,3.14709
371.562,3.14082
374.531,3.0115
377.5,2.82306
380.469,2.56632
383.437,2.47047
386.406,2.90585
389.375,3.14525
392.344,3.75595
395.312,3.64421
398.281,2.93219
401.25,2.38883
404.219,2.44651
407.187,2.55974
410.156,3.14169
413.125,4.51885
416.094,6.00549
419.062,5.74234
422.031,4.73276
425,4.18188
427.969,4.03794
430.937,4.43982
433.906,5.24515
436.875,6.62596
439.844,7.79163
442.812,8.11049
445.781,7.2295
448.75,5.78491
451.719,5.17137
454.687,4.86793
457.656,4.96705
460.625,4.84703
463.594,4.99101
466.562,5.5596
469.531,5.3767
472.5,4.93176
475.469,4.37622
478.437,4.02661
481.406,3.81622
484.375,3.71164
487.344,3.72127
490.312,3.71005
493.281,3.7552
496.25,3.82089
499.219,3.97146
502.187,4.178
505.156,4.28564
508.125,4.46592
511.094,4.60741
514.062,4.59934
517.031,4.65508
520,4.68663
522.969,4.69102
525.937,4.83408
528.906,4.76453
531.875,4.79111
534.844,4.87388
537.812,4.88045
540.781,4.93511
543.75,4.89556
546.719,4.95035
549.687,4.90476
552.656,4.75262
555.625,4.76158
558.594,4.56442
561.562,4.45732
564.531,4.35839
567.5,4.26463
570.469,4.23547
573.437,4.08465
576.406,4.0337
579.375,3.96589
582.344,3.94389
585.312,3.87314
588.281,3.79191
591.25,3.83191
594.219,3.63162
597.187,3.59548
600.156,3.53075
603.125,3.46646
606.094,3.31646
609.062,3.25133
612.031,3.25921
615,3.12439
617.969,3.04725
620.937,3.06368
623.906,2.94783
626.875,2.96807
629.844,2.98796
632.812,2.93206
635.781,2.85855
638.75,2.86819
641.719,2.84235
644.687,2.74933
647.656,2.71643
650.625,2.69185
653.594,2.69002
656.562,2.39694
659.531,2.19168
662.5,1.98955
665.469,1.84128
668.437,1.74751
671.406,1.91791
674.375,1.98614
677.344,2.10864
680.312,2.28007
683.281,2.41284
686.25,2.67648
689.219,2.56882
692.187,2.57411
695.156,2.39051
698.125,2.25658
701.094,2.39798
704.062,2.69551
707.031,3.0159
710,3.23484
712.969,3.45964
715.937,3.45563
718.906,3.55984
721.875,3.59398
724.844,3.81651
727.812,4.0027
730.781,4.49167
733.75,4.93885
736.719,4.93783
739.687,5.45053
742.656,5.25297
745.625,5.27821
748.594,5.20178
751.562,5.74944
754.531,6.78235
757.5,7.96355
760.469,9.19507
763.437,8.59985
766.406,7.63582
769.375,7.36562
772.344,6.07878
775.312,5.21715
778.281,4.1348
781.25,3.94078
784.219,3.0982
787.187,3.05275
790.156,2.68901
793.125,2.93669
796.094,3.07743
799.062,3.36978
802.031,3.68529
805,4.1852
807.969,3.89042
810.937,3.75008
813.906,3.18894
816.875,2.77187
819.844,2.63199
822.812,2.46234
825.781,2.28143
828.75,2.03798
831.719,1.65547
834.687,1.6489
837.656,1.31715
840.625,1.72161
843.594,1.55229
846.562,1.68085
849.531,1.89244
852.5,2.21402
855.469,2.58693
858.437,2.69815
861.406,3.1215
864.375,2.83096
867.344,2.74762
870.312,2.70001
873.281,2.51499
876.25,2.40892
879.219,2.42484
882.187,2.40625
885.156,2.07755
888.125,2.05698
891.094,1.88851
894.062,1.56543
897.031,1.44438
900,1.30826
902.969,1.17398
905.937,1.04354
908.906,0.944418
911.875,0.809872
914.844,0.720373
917.812,0.629886
920.781,0.556709
923.75,0.486966
926.719,0.414181
929.687,0.358444
932.656,0.369165
935.625,0.358009
938.594,0.33847
941.562,0.378094
944.531,0.351752
947.5,0.346769
950.469,0.336357
953.437,0.419544
956.406,0.459523
959.375,0.610614
962.344,0.662386
965.313,0.78286
968.281,0.864884
971.25,0.924835
974.219,0.907712
977.188,0.945717
980.156,0.94353
983.125,0.910619
986.094,0.923206
989.062,0.942121
992.031,0.961149
995,0.968016
997.969,0.97339
1000.94,0.995278
1003.91,1.02379
1006.87,1.05722
1009.84,1.11832
1012.81,1.18656
1015.78,1.26135
1018.75,1.35381
1021.72,1.4786
1024.69,1.58356
1027.66,1.7028
1030.62,1.83342
1033.59,1.9235
1036.56,1.95673
1039.53,1.99105
1042.5,1.98259
1045.47,1.96005
1048.44,1.95057
1051.41,1.97413
1054.37,1.98178
1057.34,2.06795
1060.31,2.09475
1063.28,2.12582
1066.25,2.13906
1069.22,2.04539
1072.19,1.93848
1075.16,1.51458
1078.12,1.09003
1081.09,0.65892
1084.06,0.355721
1087.03,0
1090,0
1092.97,0
1095.94,0
1098.91,0
1101.87,0
1104.84,0
1107.81,0
1110.78,0
1113.75,0
1116.72,0
1119.69,0
1122.66,0
1125.62,0
1128.59,0
1131.56,0
1134.53,0
1137.5,0
1140.47,0
1143.44,0
1146.41,0
1149.37,0
1152.34,0
1155.31,0
1158.28,0
1161.25,0
1164.22,0
1167.19,0
1170.16,0
1173.12,0
1176.09,0
1179.06,0
1182.03,0
1185,0
1187.97,0
1190.94,0
1193.91,0
1196.87,0
1199.84,0
1202.81,0
1205.78,0
1208.75,0
1211.72,0
1214.69,0
1217.66,0
1220.62,0
1223.59,0
1226.56,0
1229.53,0
1232.5,0
1235.47,0
1238.44,0
1241.41,0
1244.37,0
1247.34,0
1250.31,0
1253.28,0
1256.25,0
1259.22,0
1262.19,0
1265.16,0
1268.12,0
1271.09,0
1274.06,0
1277.03,0
1280,0
1282.97,0
1285.94,0
1288.91,0
1291.87,0
1294.84,0
1297.81,0